{"resourceType":"Bundle","id":"example-gplus-medication-request-bundle","meta":{"profile":["http://bbraun.de/fhir/infusion/StructureDefinition/GPlusMedicationRequestBundle"]},"type":"collection","entry":[{"fullUrl":"MedicationRequest/example-gplus-medicationRequest-1","resource":{"resourceType":"MedicationRequest","id":"example-gplus-medicationRequest-1","meta":{"extension":[{"url":"http://hl7.org/fhir/StructureDefinition/timezone","valueCode":"Europe/Berlin"}],"profile":["http://bbraun.de/fhir/infusion/StructureDefinition/GPlusMedicationRequest"]},"text":{"status":"generated","div":"<div xmlns=\"http://www.w3.org/1999/xhtml\"><a name=\"MedicationRequest_example-gplus-medicationRequest-1\"> </a><p class=\"res-header-id\"><b>Generated Narrative: MedicationRequest example-gplus-medicationRequest-1</b></p><a name=\"example-gplus-medicationRequest-1\"> </a><a name=\"hcexample-gplus-medicationRequest-1\"> </a><div style=\"display: inline-block; background-color: #d9e0e7; padding: 6px; margin: 4px; border: 1px solid #8da1b4; border-radius: 5px; line-height: 60%\"><p style=\"margin-bottom: 0px\"/><p style=\"margin-bottom: 0px\">Profile: <a href=\"StructureDefinition-GPlusMedicationRequest.html\">GPlusMedicationRequest</a></p></div><p><b>identifier</b>: Placer Identifier/example-gplus-medicationRequest-1\u00a0(use:\u00a0official,\u00a0)</p><p><b>status</b>: Active</p><p><b>intent</b>: Order</p><p><b>medication</b>: <a href=\"Medication-example-gplus-medication-1.html\">Medication: extension = 500 mL; form = Solution for infusion; amount = 500 ml / 1 bag</a></p><p><b>subject</b>: <a href=\"Patient-example-gplus-patient-1.html\">María Fernández López  Female, DoB: 1990-06-15 ( http://gp-hospital.de/fhir/sid/patient#example-gplus-patient-1\u00a0(use:\u00a0official,\u00a0))</a></p><p><b>encounter</b>: <a href=\"Encounter-example-gplus-encounter-1.html\">Encounter: identifier = http://gp-hospital.de/fhir/sid/encounter#example-gplus-encounter-1\u00a0(use:\u00a0official,\u00a0); status = in-progress; class = inpatient encounter (ActCode#IMP); period = 2025-11-24 09:00:00+0000 --&gt; 2025-11-24 10:30:00+0000</a></p><p><b>authoredOn</b>: 2025-11-24 10:00:00+0000</p><p><b>requester</b>: <a href=\"Practitioner-example-gplus-practitioner-1.html\">Practitioner Johanna Schneider </a></p><blockquote><p><b>dosageInstruction</b></p><p><b>text</b>: Administer Ceftriaxone 1g in 100 mL Sodium Chloride 0.9% intravenously at 200 mL/h, every 24 hours for 7 days</p><p><b>timing</b>: Events: 2025-11-24 08:00:00+0000, 2025-11-24 10:00:00+0000, 2025-11-24 12:00:00+0000 </p><p><b>asNeeded</b>: false</p><p><b>route</b>: <span title=\"Codes:{http://standardterms.edqm.eu 20045000}\">Intravenous use</span></p><h3>DoseAndRates</h3><table class=\"grid\"><tr><td style=\"display: none\">-</td><td><b>Dose[x]</b></td><td><b>Rate[x]</b></td></tr><tr><td style=\"display: none\">*</td><td>100 mL<span style=\"background: LightGoldenRodYellow\"> (Details: UCUM  codemL = 'mL')</span></td><td>200 mL/h<span style=\"background: LightGoldenRodYellow\"> (Details: UCUM  codemL/h = 'mL/h')</span></td></tr></table></blockquote></div>"},"identifier":[{"use":"official","type":{"coding":[{"system":"http://terminology.hl7.org/CodeSystem/v2-0203","code":"PLAC"}]},"system":"http://gp-hospital.de/fhir/sid/medicationRequest","value":"example-gplus-medicationRequest-1"}],"status":"active","intent":"order","medicationReference":{"reference":"Medication/example-gplus-medication-1"},"subject":{"reference":"Patient/example-gplus-patient-1"},"encounter":{"reference":"Encounter/example-gplus-encounter-1"},"authoredOn":"2025-11-24T10:00:00Z","requester":{"reference":"Practitioner/example-gplus-practitioner-1"},"dosageInstruction":[{"text":"Administer Ceftriaxone 1g in 100 mL Sodium Chloride 0.9% intravenously at 200 mL/h, every 24 hours for 7 days","timing":{"event":["2025-11-24T08:00:00Z","2025-11-24T10:00:00Z","2025-11-24T12:00:00Z"]},"asNeededBoolean":false,"route":{"coding":[{"system":"http://standardterms.edqm.eu","code":"20045000","display":"Intravenous use"}]},"doseAndRate":[{"doseQuantity":{"value":100,"unit":"mL","system":"http://unitsofmeasure.org","code":"mL"},"rateQuantity":{"value":200,"unit":"mL/h","system":"http://unitsofmeasure.org","code":"mL/h"}}]}]}},{"fullUrl":"Patient/example-gplus-patient-1","resource":{"resourceType":"Patient","id":"example-gplus-patient-1","meta":{"profile":["http://bbraun.de/fhir/infusion/StructureDefinition/GPlusPatient"]},"text":{"status":"generated","div":"<div xmlns=\"http://www.w3.org/1999/xhtml\"><a name=\"Patient_example-gplus-patient-1\"> </a><p class=\"res-header-id\"><b>Generated Narrative: Patient example-gplus-patient-1</b></p><a name=\"example-gplus-patient-1\"> </a><a name=\"hcexample-gplus-patient-1\"> </a><div style=\"display: inline-block; background-color: #d9e0e7; padding: 6px; margin: 4px; border: 1px solid #8da1b4; border-radius: 5px; line-height: 60%\"><p style=\"margin-bottom: 0px\"/><p style=\"margin-bottom: 0px\">Profile: <a href=\"StructureDefinition-GPlusPatient.html\">GPlusPatient</a></p></div><p style=\"border: 1px #661aff solid; background-color: #e6e6ff; padding: 10px;\">María Fernández López  Female, DoB: 1990-06-15 ( http://gp-hospital.de/fhir/sid/patient#example-gplus-patient-1\u00a0(use:\u00a0official,\u00a0))</p><hr/></div>"},"identifier":[{"use":"official","system":"http://gp-hospital.de/fhir/sid/patient","value":"example-gplus-patient-1"}],"name":[{"family":"Fernández López","given":["María"]}],"gender":"female","birthDate":"1990-06-15"}},{"fullUrl":"Practitioner/example-gplus-practitioner-1","resource":{"resourceType":"Practitioner","id":"example-gplus-practitioner-1","meta":{"profile":["http://bbraun.de/fhir/infusion/StructureDefinition/GPlusPractitioner"]},"text":{"status":"generated","div":"<div xmlns=\"http://www.w3.org/1999/xhtml\"><a name=\"Practitioner_example-gplus-practitioner-1\"> </a><p class=\"res-header-id\"><b>Generated Narrative: Practitioner example-gplus-practitioner-1</b></p><a name=\"example-gplus-practitioner-1\"> </a><a name=\"hcexample-gplus-practitioner-1\"> </a><div style=\"display: inline-block; background-color: #d9e0e7; padding: 6px; margin: 4px; border: 1px solid #8da1b4; border-radius: 5px; line-height: 60%\"><p style=\"margin-bottom: 0px\"/><p style=\"margin-bottom: 0px\">Profile: <a href=\"StructureDefinition-GPlusPractitioner.html\">GPlusPractitioner</a></p></div><p><b>identifier</b>: <code>http://gp-hospital.de/fhir/sid/practitioner</code>/example-gplus-practitioner-1\u00a0(use:\u00a0official,\u00a0)</p><p><b>name</b>: Johanna Schneider </p></div>"},"identifier":[{"use":"official","system":"http://gp-hospital.de/fhir/sid/practitioner","value":"example-gplus-practitioner-1"}],"name":[{"family":"Schneider","given":["Johanna"]}]}},{"fullUrl":"Encounter/example-gplus-encounter-1","resource":{"resourceType":"Encounter","id":"example-gplus-encounter-1","meta":{"profile":["http://bbraun.de/fhir/infusion/StructureDefinition/GPlusEncounter"]},"text":{"status":"generated","div":"<div xmlns=\"http://www.w3.org/1999/xhtml\"><a name=\"Encounter_example-gplus-encounter-1\"> </a><p class=\"res-header-id\"><b>Generated Narrative: Encounter example-gplus-encounter-1</b></p><a name=\"example-gplus-encounter-1\"> </a><a name=\"hcexample-gplus-encounter-1\"> </a><div style=\"display: inline-block; background-color: #d9e0e7; padding: 6px; margin: 4px; border: 1px solid #8da1b4; border-radius: 5px; line-height: 60%\"><p style=\"margin-bottom: 0px\"/><p style=\"margin-bottom: 0px\">Profile: <a href=\"StructureDefinition-GPlusEncounter.html\">GPlusEncounter</a></p></div><p><b>identifier</b>: <code>http://gp-hospital.de/fhir/sid/encounter</code>/example-gplus-encounter-1\u00a0(use:\u00a0official,\u00a0)</p><p><b>status</b>: In Progress</p><p><b>class</b>: <a href=\"http://terminology.hl7.org/7.0.1/CodeSystem-v3-ActCode.html#v3-ActCode-IMP\">ActCode: IMP</a> (inpatient encounter)</p><p><b>subject</b>: <a href=\"Patient-example-gplus-patient-1.html\">María Fernández López  Female, DoB: 1990-06-15 ( http://gp-hospital.de/fhir/sid/patient#example-gplus-patient-1\u00a0(use:\u00a0official,\u00a0))</a></p><p><b>period</b>: 2025-11-24 09:00:00+0000 --&gt; 2025-11-24 10:30:00+0000</p><blockquote><p><b>location</b></p><p><b>location</b>: <a href=\"Location-example-gplus-location-station-1.html\">Location Station 3 East</a></p><p><b>status</b>: Active</p><p><b>physicalType</b>: <span title=\"Codes:{http://terminology.hl7.org/CodeSystem/location-physical-type wa}\">Ward</span></p></blockquote><blockquote><p><b>location</b></p><p><b>location</b>: Room 312</p><p><b>status</b>: Active</p><p><b>physicalType</b>: <span title=\"Codes:{http://terminology.hl7.org/CodeSystem/location-physical-type ro}\">Room</span></p></blockquote><blockquote><p><b>location</b></p><p><b>location</b>: Bed 12</p><p><b>status</b>: Active</p><p><b>physicalType</b>: <span title=\"Codes:{http://terminology.hl7.org/CodeSystem/location-physical-type bd}\">Bed</span></p></blockquote></div>"},"identifier":[{"use":"official","system":"http://gp-hospital.de/fhir/sid/encounter","value":"example-gplus-encounter-1"}],"status":"in-progress","class":{"system":"http://terminology.hl7.org/CodeSystem/v3-ActCode","code":"IMP"},"subject":{"reference":"Patient/example-gplus-patient-1"},"period":{"start":"2025-11-24T09:00:00Z","end":"2025-11-24T10:30:00Z"},"location":[{"location":{"reference":"Location/example-gplus-location-station-1"},"status":"active","physicalType":{"coding":[{"system":"http://terminology.hl7.org/CodeSystem/location-physical-type","code":"wa"}]}},{"location":{"display":"Room 312"},"status":"active","physicalType":{"coding":[{"system":"http://terminology.hl7.org/CodeSystem/location-physical-type","code":"ro"}]}},{"location":{"display":"Bed 12"},"status":"active","physicalType":{"coding":[{"system":"http://terminology.hl7.org/CodeSystem/location-physical-type","code":"bd"}]}}]}},{"fullUrl":"Medication/example-gplus-medication-1","resource":{"resourceType":"Medication","id":"example-gplus-medication-1","meta":{"profile":["http://bbraun.de/fhir/infusion/StructureDefinition/GPlusCompoundingMedication"]},"text":{"status":"extensions","div":"<div xmlns=\"http://www.w3.org/1999/xhtml\"><a name=\"Medication_example-gplus-medication-1\"> </a><p class=\"res-header-id\"><b>Generated Narrative: Medication example-gplus-medication-1</b></p><a name=\"example-gplus-medication-1\"> </a><a name=\"hcexample-gplus-medication-1\"> </a><div style=\"display: inline-block; background-color: #d9e0e7; padding: 6px; margin: 4px; border: 1px solid #8da1b4; border-radius: 5px; line-height: 60%\"><p style=\"margin-bottom: 0px\"/><p style=\"margin-bottom: 0px\">Profile: <a href=\"StructureDefinition-GPlusCompoundingMedication.html\">GPlusCompoundingMedication</a></p></div><p><b>Extension Definition for Medication.totalVolume for Version 5.0</b>: 500 mL<span style=\"background: LightGoldenRodYellow\"> (Details: UCUM  codemL = 'mL')</span></p><p><b>form</b>: <span title=\"Codes:{http://standardterms.edqm.eu 11210000}\">Solution for infusion</span></p><p><b>amount</b>: 500 ml<span style=\"background: LightGoldenRodYellow\"> (Details: UCUM  codeml = 'ml')</span>/1 bag<span style=\"background: LightGoldenRodYellow\"> (Details: UCUM  code1 = '1')</span></p><blockquote><p><b>ingredient</b></p><p><b>item</b>: <span title=\"Codes:{http://snomed.info/sct 372670001}\">Ceftriaxone</span></p><p><b>isActive</b>: true</p><p><b>strength</b>: 1 g<span style=\"background: LightGoldenRodYellow\"> (Details: UCUM  codeg = 'g')</span>/500 ml<span style=\"background: LightGoldenRodYellow\"> (Details: UCUM  codeml = 'ml')</span></p></blockquote><blockquote><p><b>ingredient</b></p><p><b>item</b>: <span title=\"Codes:{http://snomed.info/sct 387390002}\">Sodium chloride</span></p><p><b>isActive</b>: false</p><p><b>strength</b>: 4.5 g<span style=\"background: LightGoldenRodYellow\"> (Details: UCUM  codeg = 'g')</span>/500 ml<span style=\"background: LightGoldenRodYellow\"> (Details: UCUM  codeml = 'ml')</span></p></blockquote></div>"},"extension":[{"url":"http://hl7.org/fhir/5.0/StructureDefinition/extension-Medication.totalVolume","valueQuantity":{"value":500,"unit":"mL","system":"http://unitsofmeasure.org","code":"mL"}}],"form":{"coding":[{"system":"http://standardterms.edqm.eu","code":"11210000","display":"Solution for infusion"}]},"amount":{"numerator":{"value":500,"unit":"ml","system":"http://unitsofmeasure.org","code":"ml"},"denominator":{"value":1,"unit":"bag","system":"http://unitsofmeasure.org","code":"1"}},"ingredient":[{"itemCodeableConcept":{"coding":[{"system":"http://snomed.info/sct","code":"372670001","display":"Ceftriaxone"}]},"isActive":true,"strength":{"numerator":{"value":1,"unit":"g","system":"http://unitsofmeasure.org","code":"g"},"denominator":{"value":500,"unit":"ml","system":"http://unitsofmeasure.org","code":"ml"}}},{"itemCodeableConcept":{"coding":[{"system":"http://snomed.info/sct","code":"387390002","display":"Sodium chloride"}]},"isActive":false,"strength":{"numerator":{"value":4.5,"unit":"g","system":"http://unitsofmeasure.org","code":"g"},"denominator":{"value":500,"unit":"ml","system":"http://unitsofmeasure.org","code":"ml"}}}]}},{"fullUrl":"Location/example-gplus-location-1","resource":{"resourceType":"Location","id":"example-gplus-location-station-1","meta":{"profile":["http://bbraun.de/fhir/infusion/StructureDefinition/GPlusLocation"]},"text":{"status":"generated","div":"<div xmlns=\"http://www.w3.org/1999/xhtml\"><a name=\"Location_example-gplus-location-station-1\"> </a><p class=\"res-header-id\"><b>Generated Narrative: Location example-gplus-location-station-1</b></p><a name=\"example-gplus-location-station-1\"> </a><a name=\"hcexample-gplus-location-station-1\"> </a><div style=\"display: inline-block; background-color: #d9e0e7; padding: 6px; margin: 4px; border: 1px solid #8da1b4; border-radius: 5px; line-height: 60%\"><p style=\"margin-bottom: 0px\"/><p style=\"margin-bottom: 0px\">Profile: <a href=\"StructureDefinition-GPlusLocation.html\">GPlusLocation</a></p></div><p><b>identifier</b>: <code>http://gp-hospital.de/fhir/sid/location</code>/example-gplus-location-station-1\u00a0(use:\u00a0official,\u00a0)</p><p><b>name</b>: Station 3 East</p><p><b>physicalType</b>: <span title=\"Codes:{http://terminology.hl7.org/CodeSystem/location-physical-type wa}\">Ward</span></p><p><b>managingOrganization</b>: <a href=\"Organization-example-gplus-organization-1.html\">Organization University Hospital</a></p></div>"},"identifier":[{"use":"official","system":"http://gp-hospital.de/fhir/sid/location","value":"example-gplus-location-station-1"}],"name":"Station 3 East","physicalType":{"coding":[{"system":"http://terminology.hl7.org/CodeSystem/location-physical-type","code":"wa"}]},"managingOrganization":{"reference":"Organization/example-gplus-organization-1"}}},{"fullUrl":"Organization/example-gplus-organization-1","resource":{"resourceType":"Organization","id":"example-gplus-organization-1","meta":{"profile":["http://bbraun.de/fhir/infusion/StructureDefinition/GPlusOrganization"]},"text":{"status":"generated","div":"<div xmlns=\"http://www.w3.org/1999/xhtml\"><a name=\"Organization_example-gplus-organization-1\"> </a><p class=\"res-header-id\"><b>Generated Narrative: Organization example-gplus-organization-1</b></p><a name=\"example-gplus-organization-1\"> </a><a name=\"hcexample-gplus-organization-1\"> </a><div style=\"display: inline-block; background-color: #d9e0e7; padding: 6px; margin: 4px; border: 1px solid #8da1b4; border-radius: 5px; line-height: 60%\"><p style=\"margin-bottom: 0px\"/><p style=\"margin-bottom: 0px\">Profile: <a href=\"StructureDefinition-GPlusOrganization.html\">GPlusOrganization</a></p></div><p><b>identifier</b>: <code>http://gp-hospital.de/fhir/sid/organization</code>/example-gplus-organization-1\u00a0(use:\u00a0official,\u00a0)</p><p><b>active</b>: true</p><p><b>type</b>: <span title=\"Codes:\">Hospital</span></p><p><b>name</b>: University Hospital</p><p><b>alias</b>: UH</p></div>"},"identifier":[{"use":"official","system":"http://gp-hospital.de/fhir/sid/organization","value":"example-gplus-organization-1"}],"active":true,"type":[{"text":"Hospital"}],"name":"University Hospital","alias":["UH"]}},{"fullUrl":"Provenance/example-gplus-provenance-1","resource":{"resourceType":"Provenance","id":"example-gplus-provenance-1","meta":{"profile":["http://bbraun.de/fhir/infusion/StructureDefinition/GPlusProvenance"],"tag":[{"system":"http://bbraun.de/fhir/infusion/CodeSystem/information-source","code":"ADT-A01"}]},"text":{"status":"generated","div":"<div xmlns=\"http://www.w3.org/1999/xhtml\"><a name=\"Provenance_example-gplus-provenance-1\"> </a><p class=\"res-header-id\"><b>Generated Narrative: Provenance example-gplus-provenance-1</b></p><a name=\"example-gplus-provenance-1\"> </a><a name=\"hcexample-gplus-provenance-1\"> </a><div style=\"display: inline-block; background-color: #d9e0e7; padding: 6px; margin: 4px; border: 1px solid #8da1b4; border-radius: 5px; line-height: 60%\"><p style=\"margin-bottom: 0px\"/><p style=\"margin-bottom: 0px\">Profile: <a href=\"StructureDefinition-GPlusProvenance.html\">Gravity Plus Provenance</a></p><p style=\"margin-bottom: 0px\">Tag: ADT-A01 (Details: information-source code ADT-A01)</p></div><p>Provenance for: </p><ul><li><a href=\"Encounter-example-gplus-encounter-1.html\">Encounter: identifier = http://gp-hospital.de/fhir/sid/encounter#example-gplus-encounter-1\u00a0(use:\u00a0official,\u00a0); status = in-progress; class = inpatient encounter (ActCode#IMP); period = 2025-11-24 09:00:00+0000 --&gt; 2025-11-24 10:30:00+0000</a></li><li><a href=\"Patient-example-gplus-patient-1.html\">María Fernández López  Female, DoB: 1990-06-15 ( http://gp-hospital.de/fhir/sid/patient#example-gplus-patient-1\u00a0(use:\u00a0official,\u00a0))</a></li><li><a href=\"Location-example-gplus-location-station-1.html\">Location Station 3 East</a></li></ul><p>Summary</p><table class=\"grid\"><tr><td>Occurrence</td><td>2025-11-25 08:43:12+0100</td></tr><tr><td>Recorded</td><td>2025-11-25 08:45:00+0100</td></tr><tr><td>Activity</td><td><span title=\"Codes:{http://terminology.hl7.org/CodeSystem/v3-DataOperation UPDATE}\">revise</span></td></tr></table><p><b>Agents</b></p><table class=\"grid\"><tr><td><b>Type</b></td><td><b>who</b></td><td><b>On Behalf Of</b></td></tr><tr><td><span title=\"Codes:{http://terminology.hl7.org/CodeSystem/provenance-participant-type enterer}\">Enterer</span></td><td><a href=\"Device-CloverLeafIntegrationEngine.html\">Device: status = active; manufacturer = Infor; type = Software; note = Virtuelles Device zur Repräsentation der Integration Engine (Cloverleaf) als technischer Kommunikationspartner (HL7v2, CDA, FHIR Gateway/Adapter).</a></td><td>Test Hospital</td></tr></table></div>"},"target":[{"reference":"Encounter/example-gplus-encounter-1"},{"reference":"Patient/example-gplus-patient-1"},{"reference":"Location/example-gplus-location-station-1"}],"occurredDateTime":"2025-11-25T08:43:12+01:00","recorded":"2025-11-25T08:45:00+01:00","activity":{"coding":[{"system":"http://terminology.hl7.org/CodeSystem/v3-DataOperation","code":"UPDATE","display":"revise"}]},"agent":[{"type":{"coding":[{"system":"http://terminology.hl7.org/CodeSystem/provenance-participant-type","code":"enterer"}]},"who":{"reference":"Device/CloverLeafIntegrationEngine"},"onBehalfOf":{"display":"Test Hospital"}}]}}]}